time,seconds_elapsed,z,y,x
1772807455737806300,0.063806396484375,0.0053651644848287106,0.01520325057208538,-0.0011869944864884019
1772807455747738400,0.07373828125,0.004526535049080849,0.016378238797187805,-0.007323982659727335
1772807455757669000,0.083669189453125,0.0014004383701831102,0.010502886958420277,-0.005541719030588865
1772807455767601200,0.09360107421875,0.0009562231134623289,0.006596028804779053,0.006370600778609514
1772807455777533200,0.103533203125,-0.0016179977683350444,0.004637591075152159,0.00900145061314106
1772807455787465200,0.11346533203125,0.00020280550234019756,0.006108454894274473,0.005999535787850618
1772807455797397200,0.123397216796875,0.0011653699912130833,0.004595826845616102,0.009019390679895878
1772807455807329300,0.133329345703125,-0.0026022042147815228,0.003951342310756445,0.009857753291726112
1772807455817260300,0.14326025390625,-0.0007505080429837108,0.0024940609000623226,0.007520297076553106
1772807455827192300,0.1531923828125,-0.0034504206851124763,0.0009150723926723003,0.0066076316870749
1772807455837124400,0.163124267578125,-0.0019164400873705745,-0.0028130868449807167,0.007168760057538748
1772807455847056400,0.173056396484375,-0.005941808223724365,-0.007301045581698418,0.00791550986468792
1772807455856988200,0.18298828125,-0.00796924252063036,-0.0049376459792256355,0.004824638366699219
1772807455866920200,0.192920166015625,-0.008789495564997196,-0.007509727030992508,-0.0015022330917418003
1772807455876851200,0.202851318359375,-0.00945325568318367,-0.007459170185029507,-0.005857130046933889
1772807455886783500,0.212783447265625,-0.006247076205909252,0.004786310717463493,-0.005807861685752869
1772807455896715500,0.222715576171875,-0.0023562561254948378,0.009160326793789864,-0.011353349313139915
1772807455906647300,0.232647216796875,0.00047015678137540817,0.006797835696488619,-0.015447959303855896
1772807455916579300,0.242579345703125,0.002465269062668085,0.0032103988341987133,-0.008008774369955063
1772807455926511400,0.252511474609375,-0.0003017551498487592,0.0007333927787840366,0.0013506383402273059
1772807455936443400,0.262443359375,0.0043705906718969345,-0.0008330265991389751,0.006897300947457552
1772807455946374100,0.2723740234375,0.004727986641228199,0.0033191083930432796,0.009706136770546436
1772807455956306200,0.28230615234375,0.005274317227303982,0.0005187150090932846,0.012826270423829556
1772807455966238200,0.29223828125,0.005660741589963436,-0.002658969024196267,0.011969530954957008
1772807455976170200,0.302170166015625,0.0013530340511351824,-0.01243012584745884,0.010354955680668354
1772807455986102300,0.312102294921875,-0.0005503271240741014,-0.01177552156150341,0.004713848233222961
1772807455996034600,0.32203466796875,-0.004402342718094587,-0.009524782188236713,0.004289965610951185
1772807456005965800,0.3319658203125,-0.006994396913796663,-0.01043505035340786,0.0063890693709254265
1772807456015897900,0.34189794921875,-0.008320864289999008,-0.006832859478890896,0.008484462276101112
1772807456025829600,0.35182958984375,-0.008285444229841232,-0.00676814466714859,0.006263119634240866
1772807456035761700,0.36176171875,-0.006946204230189323,-0.009062405675649643,0.0009963479824364185
1772807456045693700,0.371693603515625,-0.002990610897541046,-0.009447232820093632,-0.009631263092160225
1772807456055625700,0.381625732421875,-0.0021967224311083555,-0.009296230971813202,-0.013797778636217117
1772807456065557800,0.391557861328125,0.0009908151114359498,-0.001585580874234438,-0.008105005137622356
1772807456075488500,0.401488525390625,0.005362521857023239,0.0021275575272738934,-0.00047016487224027514
1772807456085420500,0.411420654296875,0.0039483834989368916,-0.0028019538149237633,0.008608018979430199
1772807456095352600,0.4213525390625,0.003913368098437786,-0.007650131359696388,0.01783072203397751
1772807456105284600,0.43128466796875,-0.00023557059466838837,-0.012280036695301533,0.017159072682261467
1772807456115216600,0.441216552734375,-0.006786583922803402,-0.017851052805781364,0.007578713819384575
1772807456125148700,0.451148681640625,-0.009799950756132603,-0.02119358628988266,-0.00921331625431776
1772807456135079700,0.46107958984375,-0.005720341112464666,-0.02083602547645569,-0.03368564695119858
1772807456145011700,0.47101171875,0.0007450152770616114,-0.02241448126733303,-0.06121261417865753
1772807456154943700,0.48094384765625,0.01105059776455164,-0.017475653439760208,-0.06810344010591507
1772807456164875800,0.490875732421875,0.017803043127059937,-0.012956268154084682,-0.0586063414812088
1772807456174807800,0.500807861328125,0.025401467457413673,-0.008376430720090866,-0.04197561740875244
1772807456184739600,0.510739501953125,0.029752006754279137,-0.0013153250329196453,-0.01401189249008894
1772807456194670600,0.520670654296875,0.021939963102340698,0.005501199513673782,0.014236713759601116
1772807456204602600,0.5306025390625,0.012817039154469967,0.008554513566195965,0.027153577655553818
1772807456214534700,0.54053466796875,0.004503908567130566,0.004685309249907732,0.02928178571164608
1772807456224466700,0.550466796875,-0.006257925182580948,0.0024253507144749165,0.02495601214468479
1772807456234398700,0.560398681640625,-0.010056333616375923,0.0015560542233288288,0.01853218860924244
1772807456244330800,0.570330810546875,-0.009014504961669445,0.0038461070507764816,0.005055262241512537
1772807456254262800,0.5802626953125,-0.012712323106825352,0.005284047219902277,0.00027098620194010437
1772807456264193800,0.59019384765625,-0.013225779868662357,0.008392222225666046,-0.004559721332043409
1772807456274125600,0.60012548828125,-0.00876274611800909,0.015293534845113754,0.0038366091903299093
1772807456284057600,0.6100576171875,-0.0031655803322792053,0.028974993154406548,0.01592283323407173
1772807456293989600,0.61998974609375,0.0020871004089713097,0.04476982727646828,0.026346800848841667
1772807456303921700,0.629921630859375,0.005199803039431572,0.06116930767893791,0.023510534316301346
1772807456313853700,0.639853759765625,0.00658760592341423,0.07022842764854431,0.006684677209705114
1772807456323784700,0.64978466796875,0.007714122533798218,0.06683716177940369,-0.005086494609713554
1772807456333716700,0.659716796875,0.0012210088316351175,0.059575825929641724,-0.016730887815356255
1772807456343648800,0.669648681640625,-0.004621167667210102,0.0495639406144619,-0.016911981627345085
1772807456353580800,0.679580810546875,-0.009419718757271767,0.04491305723786354,-0.01136551983654499
1772807456363512800,0.689512939453125,-0.012189672328531742,0.041930586099624634,-0.002705718856304884
1772807456373444600,0.699444580078125,-0.010461566038429737,0.04305240884423256,0.0034800986759364605
1772807456383376600,0.709376708984375,-0.00907033123075962,0.03958230838179588,0.009083122946321964
1772807456393307600,0.7193076171875,-0.005229244474321604,0.04449925571680069,0.009343933314085007
1772807456403239700,0.72923974609375,-0.003274484071880579,0.05058643966913223,0.011209211312234402
1772807456413171700,0.739171630859375,0.0034459831658750772,0.049656033515930176,0.003568429034203291
1772807456423103500,0.749103515625,0.009079634211957455,0.03817354887723923,-0.0001064670505002141
1772807456433035500,0.759035400390625,0.008181072771549225,0.04092145338654518,-0.010545345954596996
1772807456442967600,0.768967529296875,0.007092372979968786,0.03219267353415489,-0.015867672860622406
1772807456452898800,0.77889892578125,0.0034374610986560583,0.023602064698934555,-0.013220937922596931
1772807456462830800,0.788830810546875,0.00222838600166142,0.01851223036646843,-0.0036540639121085405
1772807456472762600,0.7987626953125,-0.0011478516971692443,0.019422177225351334,-0.0005938220419920981
1772807456482694700,0.808694580078125,0.0024601989425718784,0.022031275555491447,-0.008894096128642559
1772807456492626700,0.818626708984375,-0.0014164161402732134,0.01664855144917965,-0.022812046110630035
1772807456502558700,0.828558837890625,0.004400460049510002,0.01568927988409996,-0.03349851071834564
1772807456512490800,0.83849072265625,0.008091345429420471,0.008621997199952602,-0.03007892519235611
1772807456522421500,0.84842138671875,0.008262054063379765,0.006731951609253883,-0.02387802116572857
1772807456532353500,0.858353515625,0.010919897817075253,0.0007563005201518536,-0.013993081636726856
1772807456542285600,0.86828564453125,0.008778184652328491,-0.003396633081138134,-0.0006413229275494814
1772807456552217600,0.878217529296875,0.0036499814596027136,-0.012119447812438011,0.014347306452691555
1772807456562150000,0.88814990234375,-0.00021373271010816097,-0.02750985510647297,0.024203399196267128
1772807456572081700,0.89808154296875,-0.005051611457020044,-0.03486480936408043,0.025926105678081512
1772807456582012700,0.9080126953125,-0.004375434946268797,-0.042172789573669434,0.023874938488006592
1772807456591944700,0.91794482421875,-0.004108798690140247,-0.04976655915379524,0.02071002684533596
1772807456601876700,0.927876708984375,-0.002380673075094819,-0.052301887422800064,0.01763966865837574
1772807456611808800,0.937808837890625,-0.0008706444641575217,-0.05846986547112465,0.017573261633515358
1772807456621740500,0.947740478515625,0.007000061683356762,-0.05192355066537857,0.02469775080680847
1772807456631672600,0.957672607421875,0.01120113767683506,-0.03188158944249153,0.025741370394825935
1772807456641603600,0.967603515625,0.01686088740825653,-0.0182800255715847,0.017608076333999634
1772807456651536000,0.977535888671875,0.018553508445620537,-0.008507427759468555,0.006931007374078035
1772807456661467600,0.987467529296875,0.023954931646585464,-0.0003000982105731964,-0.010245583020150661
1772807456671399700,0.997399658203125,0.02659715712070465,0.009373605251312256,-0.028278814628720284
1772807456681331700,1.007331787109375,0.021090539172291756,0.014709514565765858,-0.03182641416788101
1772807456691263700,1.017263671875,0.019778132438659668,0.014801393263041973,-0.03350074216723442
1772807456701195800,1.02719580078125,0.01750299334526062,0.009505165740847588,-0.032208576798439026
1772807456711126500,1.03712646484375,0.011841717176139355,0.005654167849570513,-0.025869883596897125
1772807456721058600,1.04705859375,0.004645855166018009,-0.002677531912922859,-0.020632244646549225
1772807456730990600,1.056990478515625,0.0033476040698587894,-0.002589588286355138,-0.015344458632171154
1772807456740922600,1.066922607421875,0.00020933500491082668,-0.0014297817833721638,-0.009390695951879025
1772807456750854700,1.076854736328125,-0.0012778498930856586,0.002282477915287018,-0.004824541509151459
1772807456760786700,1.08678662109375,0.004596550948917866,0.009234127588570118,0.0006453250534832478
1772807456770717700,1.0967177734375,0.0035343794152140617,0.017008448019623756,0.012804364785552025
1772807456780649700,1.106649658203125,0.005698997061699629,0.021988026797771454,0.02287697233259678
1772807456790581800,1.116581787109375,0.006562616676092148,0.02440369687974453,0.022122656926512718
1772807456800513800,1.126513671875,0.005238226614892483,0.02218741551041603,0.02147657424211502
1772807456810445800,1.13644580078125,0.006646442227065563,0.026270924136042595,0.020634673535823822
1772807456820377600,1.146377685546875,0.007860044948756695,0.019642315804958344,0.020713770762085915
1772807456830309600,1.1563095703125,0.003319877665489912,0.01669291779398918,0.018528025597333908
1772807456840240600,1.16624072265625,0.0034455787390470505,0.020094839856028557,0.011546283960342407
1772807456850172700,1.176172607421875,0.007582789286971092,0.023566322401165962,0.003261636011302471
1772807456860104400,1.1861044921875,0.0035113487392663956,0.029105963185429573,-0.004646886605769396
1772807456870036500,1.196036376953125,0.006955320946872234,0.022973062470555305,-0.0013903083745390177
1772807456879968800,1.20596875,0.00864136777818203,0.013706592842936516,0.0031871329993009567
1772807456889900800,1.21590087890625,0.007256215438246727,0.0030936049297451973,0.0027779031079262495
1772807456899831800,1.225831787109375,0.006487627048045397,-0.004957397002726793,-0.0009659685310907662
1772807456909763600,1.235763671875,0.007682431489229202,-0.009128980338573456,-0.0064018298871815205
1772807456919695600,1.245695556640625,0.0028171022422611713,-0.009655486792325974,-0.010133983567357063
1772807456929627600,1.255627685546875,0.005149745848029852,-0.00967961922287941,-0.00867634266614914
1772807456939559700,1.2655595703125,0.002415478229522705,-0.01552099734544754,-0.0063157170079648495
1772807456949491700,1.27549169921875,-0.0007626002188771963,-0.021893301978707314,-0.009547553025186062
1772807456959423700,1.285423828125,-0.0032920707017183304,-0.03310414403676987,-0.01317557692527771
1772807456969354800,1.295354736328125,-0.0015178726753219962,-0.034472476691007614,-0.012151059694588184
1772807456979286800,1.305286865234375,0.0014454266056418419,-0.02999570220708847,-0.004944811575114727
1772807456989218800,1.31521875,0.0025988882407546043,-0.03012991137802601,0.00048474210780113935
1772807456999149800,1.32514990234375,0.0019384243059903383,-0.02543821930885315,0.011777876876294613
1772807457009081900,1.335081787109375,-0.0025115979369729757,-0.021685883402824402,0.02293572574853897
1772807457019014000,1.345013916015625,-0.00037547643296420574,-0.017057044431567192,0.01883365772664547
1772807457028944600,1.354944580078125,0.005519953556358814,-0.011798849329352379,0.015321928076446056
1772807457038876700,1.364876708984375,0.009436930529773235,-0.009598812088370323,0.004995787050575018
1772807457048808700,1.37480859375,0.010096210055053234,-0.010465878993272781,-0.0002599645231384784
1772807457058740700,1.38474072265625,0.008520950563251972,-0.01875869557261467,-0.003435517894104123
1772807457068672800,1.3946728515625,0.008021056652069092,-0.02224653959274292,-0.0034253050107508898
1772807457078605000,1.40460498046875,0.005415420047938824,-0.02482980489730835,-0.00387777597643435
1772807457088535800,1.414535888671875,0.0032984823919832706,-0.031906671822071075,0.0003578021132852882
1772807457098467800,1.4244677734375,0.0018164335051551461,-0.02562800422310829,0.0005048086168244481
1772807457108399900,1.43439990234375,-0.000032195006497204304,-0.02221878245472908,0.005582834128290415
1772807457118332000,1.444331787109375,0.000549173098988831,-0.024591393768787384,0.009491289965808392
1772807457128264000,1.454263916015625,-0.0010875881416723132,-0.028862938284873962,0.012090175412595272
1772807457138195700,1.46419580078125,-0.0020226240158081055,-0.032240625470876694,0.013955986127257347
1772807457148127700,1.474127685546875,0.0009642312070354819,-0.04210503026843071,0.01759546622633934
1772807457158059000,1.48405908203125,0.0033783866092562675,-0.0564887635409832,0.017667902633547783
1772807457167991000,1.493990966796875,0.004193863831460476,-0.06076429784297943,0.009193099103868008
1772807457177922800,1.5039228515625,0.006775532849133015,-0.05149703472852707,0.003941611852496862
1772807457187854800,1.513854736328125,0.005388274323195219,-0.04392743110656738,-0.0002141581499017775
1772807457197787000,1.523786865234375,0.005223424639552832,-0.04058569669723511,0.0042873830534517765
1772807457207719000,1.533718994140625,0.003257066011428833,-0.03166629746556282,0.003938245587050915
1772807457217650000,1.54364990234375,0.0020410665310919285,-0.024526895955204964,-0.0004527742858044803
1772807457227581700,1.553581787109375,-0.0007037251489236951,-0.01820199564099312,-0.004192028660327196
1772807457237513700,1.563513671875,-0.005882774479687214,-0.019668864086270332,-0.010177217423915863
1772807457247445800,1.57344580078125,-0.005300700664520264,-0.024295132607221603,-0.013857448473572731
1772807457257377800,1.583377685546875,-0.007590486668050289,-0.023537728935480118,-0.008643511682748795
1772807457267309800,1.593309814453125,-0.006122027989476919,-0.025554757565259933,0.002925705863162875
1772807457277241900,1.603241943359375,-0.0091857286170125,-0.027419503778219223,0.013343725353479385
1772807457287172900,1.6131728515625,-0.006526648532599211,-0.026785744354128838,0.013734697364270687
1772807457297105000,1.62310498046875,-0.002781711518764496,-0.02397770620882511,0.011276332661509514
1772807457307037000,1.633036865234375,0.0003369004116393626,-0.022772355005145073,0.00589212030172348
1772807457316969000,1.642968994140625,0.00337237142957747,-0.023042665794491768,0.007017306052148342
1772807457326900700,1.652900634765625,-0.000007327762432396412,-0.018778201192617416,0.009762229397892952
1772807457336832800,1.662832763671875,-0.00522978650406003,-0.020825106650590897,0.0050412435084581375
1772807457346763800,1.672763671875,-0.010851415805518627,-0.021500688046216965,-0.005553263705223799
1772807457356695800,1.68269580078125,-0.0112554170191288,-0.022929474711418152,-0.00957703310996294
1772807457366627800,1.6926279296875,-0.008949138224124908,-0.02326386421918869,-0.015149605460464954
1772807457376559600,1.7025595703125,-0.008847138844430447,-0.020403631031513214,-0.0174910556524992
1772807457386491600,1.71249169921875,-0.007577372714877129,-0.016596755012869835,-0.01610434241592884
1772807457396424000,1.722423828125,-0.0028987317346036434,-0.013882726430892944,-0.016443096101284027
1772807457406355000,1.73235498046875,-0.003107247408479452,-0.010769011452794075,-0.01534365676343441
1772807457416287000,1.742286865234375,-0.00044568406883627176,-0.015124876983463764,-0.013242955319583416
1772807457426218800,1.75221875,0.0034245788119733334,-0.016159776598215103,-0.01689193584024906
1772807457436150800,1.76215087890625,0.009693127125501633,-0.013635098934173584,-0.016563301905989647
1772807457446082800,1.772082763671875,0.008870191872119904,-0.008946768939495087,-0.009564420208334923
1772807457456014800,1.782014892578125,0.006032327190041542,-0.017895523458719254,-0.0017419176874682307
1772807457465947000,1.79194677734375,0.001864736434072256,-0.021139200776815414,0.006171579007059336
1772807457475878000,1.8018779296875,-0.00048550323117524385,-0.02431528829038143,0.012718161568045616
1772807457485810000,1.811809814453125,-0.004256869666278362,-0.03374628722667694,0.0163270253688097
1772807457495742000,1.821741943359375,-0.010120617225766182,-0.031596582382917404,0.016773104667663574
1772807457505674000,1.831674072265625,-0.009534244425594807,-0.030388036742806435,0.009458981454372406
1772807457515606000,1.84160595703125,-0.010702040046453476,-0.01802058331668377,0.0006492449319921434
1772807457525537800,1.851537841796875,-0.007604025304317474,-0.014505801722407341,-0.010180046781897545
1772807457535468800,1.86146875,-0.004195711575448513,-0.011440770700573921,-0.014102084562182426
1772807457545400800,1.87140087890625,-0.0019539413042366505,-0.004657849669456482,-0.016376348212361336
1772807457555332900,1.881332763671875,0.0017563747242093086,-0.005996088031679392,-0.007068599108606577
1772807457565265000,1.891264892578125,0.002631834242492914,-0.0023772339336574078,0.004169864114373922
1772807457575196700,1.90119677734375,0.001117028179578483,-0.0051415953785181046,0.014683490619063377
1772807457585128700,1.911128662109375,0.0026976640801876783,-0.006012440659105778,0.022066473960876465
1772807457595060000,1.92106005859375,-0.002978065051138401,-0.004632923286408186,0.022733328863978386
1772807457604992000,1.930991943359375,-0.00539033766835928,-0.004851403180509806,0.018098536878824234
1772807457614924000,1.940924072265625,-0.0029317070730030537,-0.0019869068637490273,0.010287485085427761
1772807457624855800,1.950855712890625,-0.0023621947038918734,-0.0003939121961593628,0.003138318657875061
1772807457634787800,1.960787841796875,-0.0010058467742055655,0.0037851203233003616,-0.006521232891827822
1772807457644719900,1.970719970703125,0.0007855506264604628,0.0029084179550409317,-0.008243149146437645
1772807457654652000,1.98065185546875,0.006678060628473759,0.0034945793449878693,-0.00529316533356905
1772807457664582700,1.990582763671875,0.007624245714396238,0.014753292314708233,-0.0046687345020473
1772807457674514700,2.0005146484375,0.014019561000168324,0.026066932827234268,-0.0013704098528251052
1772807457684446700,2.01044677734375,0.013106776401400566,0.02807767689228058,-0.00004495766916079447
1772807457694378800,2.020378662109375,0.011460943147540092,0.028517097234725952,-0.0019318072590976954
1772807457704310800,2.030310791015625,0.012030215933918953,0.023681340739130974,-0.005377055145800114
1772807457714242800,2.040242919921875,0.007600313052535057,0.020308179780840874,-0.005080112721771002
1772807457724173800,2.050173828125,0.004942324012517929,0.016678281128406525,-0.010056046769022942
1772807457734105900,2.06010595703125,0.005917306989431381,0.014502479694783688,-0.009905577637255192
1772807457744038000,2.070037841796875,0.00579436868429184,0.014762714505195618,-0.014332454651594162
1772807457753970000,2.079969970703125,0.005387970246374607,0.013202633708715439,-0.02022123523056507
1772807457763902000,2.08990185546875,0.0064582847990095615,0.00888570211827755,-0.02019122987985611
1772807457773833700,2.099833740234375,0.008274560794234276,0.00973471812903881,-0.02258993871510029
1772807457783765800,2.109765869140625,0.007598973345011473,0.018077831715345383,-0.024112213402986526
1772807457793696800,2.11969677734375,0.01391386054456234,0.026318185031414032,-0.026828372851014137
1772807457803628800,2.12962890625,0.016868580132722855,0.028729716315865517,-0.029145576059818268
1772807457813560800,2.139560791015625,0.010637583211064339,0.02652248553931713,-0.03101564757525921
1772807457823492900,2.149492919921875,0.00573088601231575,0.019430924206972122,-0.021451180800795555
1772807457833425000,2.1594248046875,0.002988628577440977,0.016977887600660324,-0.010763914324343204
1772807457843357000,2.16935693359375,0.0007052156142890453,0.02069016732275486,-0.0006145148654468358
1772807457853288000,2.179287841796875,0.0007523535750806332,0.017838187515735626,0.004850292112678289
1772807457863219700,2.1892197265625,0.0013778290012851357,0.016519349068403244,0.012414638884365559
1772807457873151700,2.19915185546875,-0.0007364546181634068,0.015876196324825287,0.008307511918246746
1772807457883083800,2.209083740234375,0.0036196867004036903,0.012913914397358894,0.0022526350803673267
1772807457893015800,2.219015869140625,0.0032002388034015894,0.012799663469195366,-0.0059419116005301476
1772807457902947800,2.22894775390625,0.004445753525942564,0.008768687024712563,-0.005941279698163271
1772807457912879900,2.2388798828125,-0.0007982767419889569,0.013052115216851234,0.00008572006481699646
1772807457922811000,2.248810791015625,0.0007981692906469107,0.014470305293798447,-0.0017824906390160322
1772807457932743000,2.258742919921875,-0.0003866710467264056,0.012332584708929062,-0.006760471034795046
1772807457942675000,2.268675048828125,0.0010166674619540572,0.008546046912670135,-0.014261794276535511
1772807457952607000,2.27860693359375,-0.0012739173835143447,0.007220324594527483,-0.011495036073029041
1772807457962538800,2.288538818359375,-0.0006504433695226908,-0.0008665150962769985,-0.0058581954799592495
1772807457972470800,2.298470703125,-0.00364649947732687,-0.0034899951424449682,0.0001464338565710932
1772807457982401800,2.30840185546875,-0.0049160197377204895,-0.01018496509641409,0.0024629379622638226
1772807457992333800,2.318333740234375,-0.000814218888990581,-0.011282719671726227,0.00025544397067278624
1772807458002265900,2.328265869140625,0.001967011485248804,-0.012162801809608936,0.006540246773511171
1772807458012198000,2.338197998046875,0.002038117963820696,-0.013267748057842255,0.007085395976901054
1772807458022130000,2.3481298828125,0.003806245280429721,-0.015445180237293243,0.01409855205565691
1772807458032061700,2.358061767578125,0.003446718445047736,-0.020105445757508278,0.015610162168741226
1772807458041994000,2.367993896484375,0.0018123192712664604,-0.020314939320087433,0.013087708503007889
1772807458051925000,2.377925048828125,-0.0003416454419493675,-0.022622568532824516,0.009126522578299046
1772807458061857000,2.38785693359375,-0.003283943049609661,-0.01956106349825859,-0.0007445637602359056
1772807458071789000,2.3977890625,-0.005688777193427086,-0.013930873945355415,-0.009055224247276783
1772807458081720800,2.407720947265625,-0.003209053771570325,-0.009064246900379658,-0.01578158140182495
1772807458091652900,2.41765283203125,0.0015774457715451717,-0.004870301112532616,-0.015253211371600628
1772807458101585000,2.4275849609375,0.005584558006376028,-0.0011091786436736584,-0.013434535823762417
1772807458111516000,2.437515869140625,0.006918269209563732,-0.0030900377314537764,-0.009435532614588737
1772807458121448000,2.447447998046875,0.007228527683764696,-0.0100422203540802,-0.004774734377861023
1772807458131380000,2.4573798828125,0.006225314922630787,-0.014432973228394985,0.007944788783788681
1772807458141312000,2.46731201171875,0.008784052915871143,-0.005728281568735838,0.005279770120978355
1772807458151244000,2.477244140625,0.004282777663320303,-0.0006067561917006969,0.004537280648946762
1772807458161176000,2.487176025390625,0.0033940807916224003,-0.0009132861159741879,0.005276840180158615
1772807458171108000,2.497108154296875,-0.0031748726032674313,-0.00476448331028223,0.013771791011095047
1772807458181038800,2.507038818359375,-0.006903013214468956,-0.006362746935337782,0.016606368124485016
1772807458190971000,2.516970947265625,-0.00797733198851347,-0.00023561250418424606,0.01163424551486969
1772807458200903000,2.52690283203125,-0.005995811894536018,0.0018298272043466568,0.012761917896568775
1772807458210835000,2.5368349609375,-0.00805283710360527,0.002320381812751293,0.01276431418955326
1772807458220767000,2.54676708984375,-0.0063318596221506596,0.001773657277226448,0.014220166951417923
1772807458230698800,2.55669873046875,-0.008757466450333595,-0.0004783119075000286,0.00954312365502119
1772807458240630000,2.566630126953125,-0.0038535473868250847,0.0005641942843794823,0.003642362542450428
1772807458250562000,2.57656201171875,-0.0038743200711905956,-0.0006355596706271172,0.001871892949566245
1772807458260494000,2.586494140625,-0.004197516944259405,-0.0019370559602975845,0.008185630664229393
1772807458270426000,2.596426025390625,-0.0028414353728294373,-0.003205519635230303,0.012810210697352886
1772807458280358000,2.60635791015625,-0.005301112774759531,-0.0024817718658596277,0.014430385082960129
1772807458290290000,2.6162900390625,-0.00473945215344429,-0.011559156700968742,0.0182349756360054
1772807458300222000,2.626221923828125,-0.01110005471855402,-0.019965864717960358,0.021286435425281525
1772807458310153000,2.636153076171875,-0.010543453507125378,-0.02442426234483719,0.024764258414506912
1772807458320084700,2.646084716796875,-0.01406321581453085,-0.020213430747389793,0.024274678900837898
1772807458330016800,2.656016845703125,-0.017143428325653076,-0.009826036170125008,0.014084093272686005
1772807458339948800,2.66594873046875,-0.018796689808368683,0.00006985245272517204,0.00433931453153491
1772807458349880800,2.675880859375,-0.015121528878808022,0.0033764326944947243,-0.004741532262414694
1772807458359812900,2.685812744140625,-0.013056274503469467,0.002756068017333746,-0.013637016527354717
1772807458369744000,2.695743896484375,-0.009604019112884998,0.005853591021150351,-0.011126987636089325
1772807458379676000,2.705676025390625,-0.00652109831571579,0.011751443147659302,0.004074503667652607
1772807458389608000,2.71560791015625,-0.004396961070597172,0.015016479417681694,0.020527778193354607
1772807458399540000,2.7255400390625,-0.006771822459995747,0.018841106444597244,0.022966699674725533
1772807458409472000,2.735471923828125,-0.003943811170756817,0.01875881478190422,0.01838100329041481
1772807458419404000,2.745404052734375,-0.0075505394488573074,0.016679199412465096,0.006439567543566227
1772807458429335800,2.755335693359375,-0.009767354466021061,0.00948653370141983,-0.007151608821004629
1772807458439266800,2.765266845703125,-0.007051332853734493,0.006036300212144852,-0.01260780356824398
1772807458449198800,2.77519873046875,-0.007852678187191486,0.0020950883626937866,-0.017331719398498535
1772807458459131000,2.785130859375,-0.008238588459789753,0.0009167375974357128,-0.014940906316041946
1772807458469063000,2.79506298828125,-0.004690458532422781,-0.003962173592299223,-0.014689503237605095
1772807458478995000,2.804994873046875,-0.0024118158034980297,-0.0023437461350113153,-0.01205094251781702
1772807458488927000,2.814927001953125,-0.0011050025932490826,-0.006838096771389246,-0.0071398066356778145
1772807458498858000,2.82485791015625,0.0002346155233681202,-0.004478465765714645,0.00026628555497154593
1772807458508790000,2.8347900390625,0.0011227796785533428,-0.005728287156671286,0.001060972805134952
1772807458518721800,2.8447216796875,0.0037652570754289627,-0.00847636442631483,0.0007742193411104381
1772807458528653800,2.85465380859375,0.0037679201923310757,-0.00876931194216013,0.002886106027290225
1772807458538585900,2.8645859375,0.0005094920052215457,-0.014149138703942299,0.010075586847960949
1772807458548518000,2.874517822265625,-0.003777132136747241,-0.022086691111326218,0.012899070046842098
1772807458558450000,2.884449951171875,-0.001629782491363585,-0.02613493800163269,0.008070661686360836
1772807458568381000,2.894380859375,-0.004122501239180565,-0.03377581387758255,0.005306832492351532
1772807458578313000,2.90431298828125,-0.0023161908611655235,-0.038263171911239624,0.0034751351922750473
1772807458588245000,2.914244873046875,-0.004554311279207468,-0.03860219195485115,0.0005837412900291383
1772807458598177000,2.924177001953125,-0.0030563343316316605,-0.03452146425843239,-0.0011594934621825814
1772807458608109000,2.934109130859375,-0.0032044057734310627,-0.036073289811611176,-0.002680690959095955
1772807458618041000,2.944041015625,-0.0020254612900316715,-0.031238915398716927,0.0022945457603782415
1772807458627971800,2.953971923828125,-0.003622825723141432,-0.026549089699983597,0.0059614526107907295
1772807458637904000,2.96390380859375,-0.004314669407904148,-0.019753217697143555,0.004007125739008188
1772807458647836000,2.9738359375,-0.0035037368070334196,-0.018919914960861206,-0.000986034981906414
1772807458657768000,2.983767822265625,-0.0020504670683294535,-0.015109100379049778,-0.008252110332250595
1772807458667699700,2.99369970703125,-0.0006142243510112166,-0.010091705247759819,-0.009734425693750381
1772807458677631700,3.0036318359375,0.002350303577259183,-0.011322655715048313,-0.003966114949434996
1772807458687563800,3.013563720703125,-0.0016518949996680021,-0.009494395926594734,-0.002806840930134058
1772807458697495000,3.0234951171875,-0.0037838926073163748,-0.002771354280412197,0.003129168413579464
1772807458707427000,3.033427001953125,-0.002095981268212199,0.0023829275742173195,0.00652230205014348
1772807458717358800,3.04335888671875,-0.0024845809675753117,0.007065012119710445,0.009831644594669342
1772807458727291000,3.053290771484375,-0.007832475006580353,0.0077987127006053925,0.006741312798112631
1772807458737223000,3.063222900390625,-0.00503854313865304,0.005956819746643305,0.005958962719887495
1772807458747155000,3.073155029296875,-0.0026566116139292717,0.010314283892512321,0.0030340126249939203
1772807458757086000,3.0830859375,-0.0025809688959270716,0.005601237528026104,0.0016457935562357306
1772807458767017700,3.093017822265625,-0.004261157009750605,0.0030067861080169678,0.002042071893811226
1772807458776949800,3.10294970703125,-0.0033899180125445127,0.004197427537292242,0.006528169848024845
1772807458786882000,3.112882080078125,-0.002514803083613515,0.006516508292406797,0.00640459917485714
1772807458796814000,3.12281396484375,-0.005089547485113144,0.010026020929217339,0.005317497067153454
1772807458806746000,3.13274609375,0.002497798763215542,0.014361115172505379,0.002536624204367399
1772807458816678000,3.142677978515625,0.002815291518345475,0.012844466604292393,0.0017197340494021773
1772807458826609000,3.15260888671875,0.00377003476023674,0.014781382866203785,0.004634031094610691
1772807458836541000,3.162541015625,0.0007485728128813207,0.012549356557428837,0.00965266302227974
1772807458846473000,3.172472900390625,-0.00425310991704464,0.005709825083613396,0.021173233166337013
1772807458856405000,3.182405029296875,-0.002910695970058441,0.00002100132405757904,0.0245915949344635
1772807458866336800,3.192336669921875,-0.004747744649648666,-0.0038986389990895987,0.02079259604215622
1772807458876268800,3.202268798828125,-0.005992993712425232,-0.000654891598969698,0.014357500709593296
1772807458886200000,3.212199951171875,-0.005782070569694042,-0.003256001276895404,0.001171125564724207
1772807458896132000,3.222132080078125,-0.004441419150680304,0.0002214577980339527,-0.005227211397141218
1772807458906064100,3.232064208984375,-0.0030733533203601837,0.0037956861779093742,-0.0121074877679348
1772807458915996000,3.241995849609375,-0.0026877527125179768,0.005229677073657513,-0.01596107706427574
1772807458925928000,3.251927978515625,-0.006385551765561104,0.0006338604725897312,-0.019666599109768867
1772807458935860000,3.26185986328125,-0.006818572990596294,-0.0056384652853012085,-0.015988420695066452
1772807458945792000,3.2717919921875,-0.0075112609192729,-0.014746742323040962,-0.021856162697076797
1772807458955722800,3.28172265625,-0.006613381206989288,-0.027477558702230453,-0.020071489736437798
1772807458965654800,3.29165478515625,-0.005785936955362558,-0.029343903064727783,-0.011645514518022537
1772807458975586800,3.3015869140625,-0.0041541848331689835,-0.027183737605810165,-0.0058522578328847885
1772807458985518800,3.311518798828125,-0.0007040598429739475,-0.023021750152111053,-0.003673792351037264
1772807458995450600,3.32145068359375,0.003472542855888605,-0.02139170467853546,0.0011416542110964656
1772807459005382700,3.331382568359375,0.009030560031533241,-0.019470766186714172,0.0040085469372570515
1772807459015313400,3.3413134765625,0.004178537987172604,-0.022002050653100014,0.009075922891497612
1772807459025245400,3.351245361328125,0.004151639994233847,-0.021358897909522057,0.008716928772628307
1772807459035177500,3.361177490234375,0.0044690086506307125,-0.02682201936841011,0.010329372249543667
1772807459045109500,3.371109619140625,0.0009626909741200507,-0.026436392217874527,0.017045598477125168
1772807459055041500,3.38104150390625,-0.00531732477247715,-0.028786005452275276,0.009474056772887707
1772807459064973300,3.390973388671875,-0.01007319800555706,-0.02381175383925438,0.014751110225915909
1772807459074905300,3.4009052734375,-0.01661810465157032,-0.02852669730782509,0.015413274057209492
1772807459084836600,3.410836669921875,-0.014941912144422531,-0.030660422518849373,0.008361490443348885
1772807459094768600,3.4207685546875,-0.015944918617606163,-0.03138534352183342,-0.0037499612662941217
1772807459104700700,3.43070068359375,-0.015014942735433578,-0.028355468064546585,-0.013921638950705528
1772807459114632400,3.440632568359375,-0.01112733781337738,-0.029478885233402252,-0.017407698556780815
1772807459124564500,3.450564453125,-0.005048672668635845,-0.03652534261345863,-0.006041594315320253
1772807459134496500,3.46049658203125,-0.0036772286985069513,-0.035200025886297226,-0.005113404709845781
1772807459144427500,3.470427490234375,0.002481863833963871,-0.033393602818250656,-0.0025943205691874027
1772807459154359600,3.480359619140625,0.0013304810272529721,-0.03320619463920593,0.003441459499299526
1772807459164291300,3.490291259765625,0.0006537717999890447,-0.023579932749271393,0.0021125422790646553
1772807459174223400,3.500223388671875,-0.0003486648201942444,-0.023549964651465416,-0.00852358527481556
1772807459184155400,3.5101552734375,-0.0013319039717316628,-0.02087375521659851,-0.00909589882940054
1772807459194087400,3.52008740234375,-0.00411831121891737,-0.019510196521878242,-0.0029784231446683407
1772807459204019500,3.53001953125,-0.004036552272737026,-0.01613517291843891,0.0028613563627004623
1772807459213950500,3.539950439453125,-0.001957755070179701,-0.007693723309785128,0.005040606018155813
1772807459223882500,3.549882568359375,0.0005591986700892448,-0.007305434439331293,0.010913142934441566
1772807459233814500,3.559814453125,-0.000826945761218667,-0.001895942259579897,0.011093786917626858
1772807459243746600,3.56974658203125,0.001439936924725771,0.0008290042169392109,0.00543430307880044
1772807459253678600,3.5796787109375,-0.0030929232016205788,-0.0012879124842584133,-0.0030581564642488956
1772807459263610400,3.5896103515625,-0.001642033108510077,0.0002191700041294098,-0.0034051663242280483
1772807459273542400,3.59954248046875,-0.0021673624869436026,0.0038826018571853638,-0.007317167706787586
1772807459283473400,3.609473388671875,-0.0029388803523033857,0.006589172407984734,-0.005997837986797094
1772807459293405400,3.619405517578125,-0.001187843270599842,0.009947104379534721,0.002951535629108548
1772807459303337500,3.62933740234375,-0.008232437074184418,0.001708881463855505,0.0018817437812685966
1772807459313269500,3.63926953125,-0.008740585297346115,-0.0039768703281879425,0.0057058692909777164
1772807459323201500,3.649201416015625,-0.007242557127028704,-0.012841735035181046,0.000023748951207380742
1772807459333133600,3.659133544921875,-0.009231243282556534,-0.01554674282670021,-0.003389453748241067
1772807459343064600,3.669064697265625,-0.007510041818022728,-0.016049016267061234,-0.004743671044707298
1772807459352996400,3.678996337890625,-0.005660356022417545,-0.013929466716945171,-0.0018125931965187192
1772807459362928400,3.688928466796875,-0.0030094452667981386,-0.01263090968132019,-0.0014791653957217932
1772807459372860400,3.6988603515625,-0.00034349225461483,-0.008278614841401577,0.007087781094014645
1772807459382792400,3.70879248046875,0.006422001868486404,-0.0037986449897289276,0.01244606077671051
1772807459392724500,3.718724365234375,0.007850568741559982,0.006706178188323975,0.01184897031635046
1772807459402656500,3.728656494140625,0.006860671564936638,0.010858045890927315,0.005354851018637419
1772807459412587500,3.73858740234375,0.005316282156854868,0.006203779019415379,0.0035601521376520395
1772807459422519600,3.74851953125,0.0027761589735746384,0.001956569030880928,0.0021747758146375418
1772807459432451600,3.75845166015625,-0.00026020396035164595,0.0023684417828917503,-0.0006331814802251756
1772807459442383600,3.768383544921875,0.0001270195934921503,0.0036100074648857117,-0.0013112223241478205
1772807459452315600,3.778315673828125,0.0013399001909419894,0.004158832132816315,-0.00009707453136797994
1772807459462247400,3.788247314453125,0.0002136494149453938,0.012174149043858051,0.003003644058480859
1772807459472179500,3.798179443359375,0.0006130796391516924,0.013001037761569023,0.0009629621636122465
1772807459482110500,3.8081103515625,0.0012983109336346388,0.014032481238245964,-0.0019209750462323427
1772807459492042500,3.81804248046875,0.0001942539820447564,0.015133173204958439,-0.0036540029104799032
1772807459501974300,3.827974365234375,-0.000681393314152956,0.02101077139377594,-0.0007242592400871217
1772807459511906300,3.83790625,-0.0000050942180678248405,0.023037636652588844,0.0015692574670538306
1772807459521838300,3.84783837890625,-0.0010687607573345304,0.020583534613251686,0.005118452478200197
1772807459531770400,3.857770263671875,0.00396183505654335,0.032896146178245544,0.007613918744027615
1772807459541702400,3.867702392578125,0.005730440374463797,0.03408444672822952,0.008615267463028431
1772807459551633400,3.87763330078125,-0.000001800362952053547,0.02910066768527031,0.014869623817503452
1772807459561565400,3.8875654296875,-0.0027565741911530495,0.02452455833554268,0.01591065526008606
1772807459571497500,3.89749755859375,-0.0019202958792448044,0.02028053253889084,0.011290324851870537
1772807459581429500,3.907429443359375,-0.001925355987623334,0.017844006419181824,0.009448217228055
1772807459591361500,3.917361572265625,-0.0007029946427792311,0.01624389737844467,0.0074334535747766495
1772807459601293600,3.92729345703125,-0.002136307768523693,0.013172739185392857,0.0127573786303401
1772807459611224300,3.937224365234375,0.00021537626162171364,0.014442253857851028,0.01624576933681965
1772807459621156400,3.94715625,-0.001899173716083169,0.011076018214225769,0.018251929432153702
1772807459631088400,3.95708837890625,-0.0016845487989485264,0.008606082759797573,0.022546548396348953
1772807459641020400,3.9670205078125,0.0013144369004294276,0.007849744521081448,0.02403525449335575
1772807459650952700,3.97695263671875,0.0004179452662356198,0.008747270330786705,0.022121228277683258
1772807459660882400,3.98688232421875,0.0016310150967910886,0.008442604914307594,0.01664896495640278
1772807459670814500,3.996814453125,-0.002058439189568162,0.007370278239250183,0.013996909372508526
1772807459680746500,4.00674658203125,-0.003390285884961486,0.007296508178114891,0.010026934556663036
1772807459690678300,4.01667822265625,-0.003276011673733592,0.006815930362790823,0.011459710076451302
1772807459700610300,4.0266103515625,-0.0031756104435771704,0.009711319580674171,0.0056779878214001656
1772807459710541600,4.03654150390625,-0.0056574963964521885,0.0030101086013019085,0.0031838377472013235
1772807459720473600,4.0464736328125,-0.002465431345626712,-0.004955939017236233,0.004106090869754553
1772807459730405600,4.056405517578125,-0.005532226525247097,-0.007134067825973034,0.004579607862979174
1772807459740337400,4.06633740234375,-0.001264244201593101,-0.004352129530161619,0.0035367137752473354
1772807459750269400,4.07626953125,-0.0017123101279139519,-0.0009586657397449017,0.013029016554355621
1772807459760201500,4.086201416015625,0.002908540889620781,0.00207680556923151,0.018782775849103928
1772807459770133500,4.096133544921875,0.002882974222302437,0.006084863096475601,0.021276293322443962
1772807459780064300,4.106064208984375,0.0036148109938949347,0.009605295024812222,0.017788084223866463
1772807459789996300,4.115996337890625,0.006194362882524729,0.009368982166051865,0.014498456381261349
1772807459799928300,4.12592822265625,0.006920606829226017,0.004523627460002899,0.010886943899095058
1772807459809860400,4.1358603515625,0.001491739065386355,0.0022184858098626137,0.011385313235223293
1772807459819792400,4.14579248046875,0.004740529228001833,-0.007607513573020697,0.005355650093406439
1772807459829724700,4.155724609375,-0.00045263487845659256,-0.00923390593379736,-0.002341950312256813
1772807459839656400,4.165656494140625,0.0003966471995227039,-0.011632615700364113,-0.00828292965888977
1772807459849587500,4.17558740234375,-0.0041336785070598125,-0.01699155569076538,-0.013116296380758286
1772807459859519500,4.18551953125,-0.0023560188710689545,-0.019547924399375916,-0.015424990095198154
1772807459869451500,4.195451416015625,-0.0034781228750944138,-0.02206219732761383,-0.012898365035653114
1772807459879383600,4.205383544921875,-0.0010985882254317403,-0.021355660632252693,-0.00832731556147337
1772807459889315300,4.2153154296875,-0.001350912032648921,-0.01918938010931015,-0.008396027609705925
1772807459899247400,4.225247314453125,0.0017902865074574947,-0.018213864415884018,-0.005222604610025883
1772807459909179400,4.235179443359375,0.001810150220990181,-0.020036820322275162,-0.003178189741447568
1772807459919110700,4.245110595703125,0.005070125684142113,-0.019998736679553986,0.000306556437863037
1772807459929042700,4.255042724609375,0.0038953323382884264,-0.017822742462158203,0.0035411594435572624
1772807459938974500,4.264974365234375,0.0011320363264530897,-0.018483206629753113,-0.0003246851556468755
1772807459948906500,4.274906494140625,0.00432468019425869,-0.01449620258063078,-0.0030309997964650393
1772807459958838500,4.284838623046875,0.005492210388183594,-0.010996276512742043,-0.004726634360849857
1772807459968770600,4.2947705078125,0.003729666583240032,-0.01229125913232565,-0.009021411649882793
1772807459978701300,4.304701416015625,0.003624737961217761,-0.010132767260074615,-0.004047159105539322
1772807459988633300,4.31463330078125,0.0024459348060190678,-0.012395517900586128,-0.004767465405166149
1772807459998565400,4.3245654296875,0.0022390070371329784,-0.014800352975726128,-0.00036552653182297945
1772807460008498400,4.33449853515625,-0.0004944464890286326,-0.01534985564649105,0.0044179512187838554
1772807460018430200,4.34443017578125,0.0008706898661330342,-0.01101609319448471,0.00597803108394146
1772807460028363300,4.35436328125,0.003244722029194236,-0.011078819632530212,0.007334566209465265
1772807460038295300,4.36429541015625,-0.00149117736145854,-0.004534899722784758,0.006988621316850185
1772807460048227300,4.374227294921875,0.0020988029427826405,-0.0037375183310359716,0.009163527749478817
1772807460058159400,4.384159423828125,-0.0009028458734974265,-0.005884558893740177,0.007223414722830057
1772807460068091400,4.39409130859375,-0.003600464202463627,-0.008251378312706947,0.002834252081811428
1772807460078023400,4.4040234375,-0.003757057711482048,-0.007962957955896854,0.002856622450053692
1772807460087954200,4.4139541015625,-0.006736241281032562,-0.011753587052226067,0.005373229738324881
1772807460097886200,4.42388623046875,-0.008027873933315277,-0.012121370062232018,0.0054392763413488865
1772807460107818200,4.433818359375,-0.008246785961091518,-0.013324585743248463,0.0037979697808623314
1772807460117750500,4.44375048828125,-0.008993536233901978,-0.014021534472703934,-0.000954174785874784
1772807460127682600,4.4536826171875,-0.00989726185798645,-0.012839073315262794,-0.008388037793338299
1772807460137614300,4.4636142578125,-0.008652767166495323,-0.011312815360724926,-0.007458860985934734
1772807460147545300,4.47354541015625,-0.006338999141007662,-0.012197606265544891,-0.0045851352624595165
1772807460157477400,4.483477294921875,-0.0015655492898076773,-0.01110118255019188,0.0032762493938207626
1772807460167409400,4.493409423828125,0.003211486153304577,-0.015028612688183784,0.00765768438577652
1772807460177341200,4.503341064453125,0.0019683223217725754,-0.022967496886849403,0.008318680338561535
1772807460187273200,4.513273193359375,-0.0017792779253795743,-0.025129983201622963,0.011582118459045887
1772807460197205200,4.523205322265625,0.00011875701602548361,-0.028701813891530037,0.011141365393996239
1772807460207137300,4.53313720703125,-0.0009493370307609439,-0.030441317707300186,0.00788752268999815
1772807460217068500,4.543068603515625,0.0006323143607005477,-0.028070572763681412,0.0045156944543123245
1772807460227000300,4.553000244140625,0.00044775730930268764,-0.022356227040290833,0.0003433198435232043
1772807460236932400,4.562932373046875,0.0031929435208439827,-0.013907082378864288,-0.0031757811084389687
1772807460246864400,4.572864501953125,0.005079655908048153,-0.005597063805907965,-0.00028110170387662947
1772807460256796400,4.58279638671875,0.00471506966277957,0.00378844840452075,0.006523807533085346
1772807460266728400,4.592728515625,0.006244326010346413,0.008785686455667019,0.0141019057482481
1772807460276660500,4.602660400390625,0.007604934275150299,0.017048411071300507,0.012333832681179047
1772807460286591200,4.61259130859375,0.005620826035737991,0.023569516837596893,0.00398412486538291
1772807460296523300,4.622523193359375,0.005375016015022993,0.01969648152589798,-0.005135870072990656
1772807460306455300,4.632455322265625,-0.0018440722487866879,0.017066944390535355,-0.01099276915192604
1772807460316387300,4.64238720703125,-0.00615812698379159,0.014148387126624584,-0.002831513062119484
1772807460326319400,4.6523193359375,-0.009108401834964752,0.018306374549865723,0.005487468093633652
1772807460336251100,4.662251220703125,-0.007223948370665312,0.024519529193639755,0.017679685726761818
1772807460346183400,4.672183349609375,-0.008055153302848339,0.031393636018037796,0.023490000516176224
1772807460356114400,4.682114501953125,-0.00842453446239233,0.02539806067943573,0.020316043868660927
1772807460366046500,4.69204638671875,-0.006621417589485645,0.024776989594101906,0.015180577524006367
1772807460375978200,4.701978271484375,-0.008589759469032288,0.024410007521510124,0.012409824877977371
1772807460385910300,4.71191015625,-0.009367863647639751,0.028292616829276085,0.009246979840099812
1772807460395842300,4.72184228515625,-0.006840789690613747,0.030882539227604866,0.01221933402121067
1772807460405774300,4.7317744140625,-0.0027203471399843693,0.03476383164525032,0.010324228554964066
1772807460415705300,4.741705322265625,-0.00630363030359149,0.03350575268268585,0.011481371708214283
1772807460425637000,4.75163720703125,-0.005849053617566824,0.028107937425374985,0.017329145222902298
1772807460435569400,4.7615693359375,-0.005306301638484001,0.023357391357421875,0.022078095003962517
1772807460445501400,4.77150146484375,-0.008978450670838356,0.020816491916775703,0.020823638886213303
1772807460455433500,4.78143359375,-0.007851934060454369,0.019756287336349487,0.017270715907216072
1772807460465365500,4.791365478515625,-0.007852603681385517,0.021260328590869904,0.015311517752707005
1772807460475297500,4.801297607421875,-0.008681645616889,0.021731441840529442,0.010174280032515526
1772807460485228300,4.811228271484375,-0.001749853603541851,0.02359749749302864,0.008594407700002193
1772807460495160300,4.821160400390625,-0.004305422771722078,0.020555369555950165,0.00631767138838768
1772807460505092400,4.83109228515625,0.00011021312093362212,0.017188314348459244,0.007816147059202194
1772807460515024400,4.8410244140625,0.002977904863655567,0.022480282932519913,0.004232864361256361
1772807460524956200,4.8509560546875,0.0019205412827432156,0.03201770409941673,0.0047965566627681255
1772807460534888200,4.86088818359375,0.003685418050736189,0.03734162822365761,0.0028529816772788763
1772807460544820200,4.8708203125,0.004809756763279438,0.04277825355529785,0.010075396858155727
1772807460554751500,4.88075146484375,0.004947441630065441,0.04733145982027054,0.014353232458233833
1772807460564683500,4.89068359375,0.007762308698147535,0.05161876603960991,0.02192760817706585
1772807460574615300,4.900615234375,0.0038155040238052607,0.05030955746769905,0.027157790958881378
1772807460584547300,4.91054736328125,0.000986004713922739,0.044686317443847656,0.024163158610463142
1772807460594479400,4.920479248046875,-0.004197305534034967,0.03755649924278259,0.02355755679309368
1772807460604411400,4.930411376953125,-0.008364742621779442,0.030049916356801987,0.022412128746509552
1772807460614343400,4.940343505859375,-0.01518003735691309,0.026563037186861038,0.021486414596438408
1772807460624274200,4.950274169921875,-0.015897506847977638,0.026612399145960808,0.028083421289920807
1772807460634206200,4.960206298828125,-0.018105002120137215,0.025435546413064003,0.03039424680173397
1772807460644138200,4.97013818359375,-0.02075028046965599,0.022332429885864258,0.03174153342843056
1772807460654070300,4.9800703125,-0.01738883927464485,0.015941109508275986,0.02875373139977455
1772807460664002300,4.990002197265625,-0.018318185582756996,0.009501964785158634,0.023696040734648705
1772807460673934300,4.999934326171875,-0.014278169721364975,0.0075296275317668915,0.0193974319845438
1772807460683866400,5.009866455078125,-0.010202057659626007,0.005598634481430054,0.01824082061648369
1772807460693797400,5.01979736328125,-0.011150674894452095,-0.0007282369770109653,0.018826182931661606
1772807460703729400,5.0297294921875,-0.010896323248744011,-0.006868287920951843,0.017503386363387108
1772807460713661400,5.039661376953125,-0.009631321765482426,-0.011880090460181236,0.01164975855499506
1772807460723593200,5.04959326171875,-0.003839842975139618,-0.008848222903907299,0.011689076200127602
1772807460733525200,5.059525146484375,-0.003327450715005398,-0.010489795356988907,0.01529339887201786
1772807460743457300,5.069457275390625,-0.001927703502587974,-0.011077472940087318,0.015226377174258232
1772807460753389300,5.079389404296875,0.0010369274532422423,-0.005165787413716316,0.017467960715293884
1772807460763320300,5.0893203125,0.0012103935005143285,-0.0021200499031692743,0.01888991892337799
1772807460773252400,5.09925244140625,-0.0026631741784512997,-0.002460668096318841,0.025482840836048126
1772807460783184400,5.109184326171875,-0.0025031249970197678,-0.004598076455295086,0.024468887597322464
1772807460793116400,5.119116455078125,-0.0016953883459791541,-0.002218009438365698,0.029054319486021996
1772807460803048400,5.12904833984375,-0.0003523244522511959,0.006951301358640194,0.027970584109425545
1772807460812980500,5.13898046875,0.002544928342103958,0.01312930230051279,0.02582753822207451
1772807460822912500,5.14891259765625,0.004878934007138014,0.010208262130618095,0.023648181930184364
1772807460832843300,5.15884326171875,-0.0021885628812015057,0.009903596714138985,0.022383181378245354
1772807460842775300,5.168775390625,-0.007104275282472372,0.0013386867940425873,0.02333349548280239
1772807460852707300,5.178707275390625,-0.00783584639430046,0.0006824838928878307,0.02008816786110401
1772807460862639400,5.188639404296875,-0.010890772566199303,0.0003669918514788151,0.01718754507601261
1772807460872571100,5.198571044921875,-0.014535307884216309,-0.0002713678404688835,0.013814651407301426
1772807460882503200,5.208503173828125,-0.01483770553022623,-0.002923233900219202,0.01084886584430933
1772807460892435200,5.218435302734375,-0.014469125308096409,-0.005427404306828976,0.006414702162146568
1772807460902366500,5.228366455078125,-0.008179212920367718,-0.006099715828895569,0.011269365437328815
1772807460912298500,5.238298583984375,-0.0031663451809436083,-0.009382860735058784,0.020703880116343498
1772807460922230300,5.248230224609375,-0.004036969505250454,-0.008666477166116238,0.025873616337776184
1772807460932162300,5.258162353515625,-0.002649462316185236,-0.007939966395497322,0.026788145303726196
1772807460942094300,5.26809423828125,-0.003483793931081891,-0.008930922485888004,0.01867108978331089
1772807460952026400,5.2780263671875,0.00010241876589134336,-0.01158316433429718,0.006700446829199791
1772807460961958400,5.28795849609375,-0.0005604928592219949,-0.01625719480216503,-0.00009157939348369837
1772807460971889200,5.29788916015625,0.0028113354928791523,-0.02299419231712818,-0.00022180797532200813
1772807460981821200,5.3078212890625,0.006223670672625303,-0.02523382380604744,0.00564149022102356
1772807460991753200,5.317753173828125,0.006542983930557966,-0.0242705587297678,0.006869473494589329
1772807461001686000,5.32768603515625,0.004896747414022684,-0.02358197793364525,0.01047282014042139
1772807461011618000,5.3376181640625,0.006569212768226862,-0.02046740986406803,0.011087478138506413
1772807461021549800,5.3475498046875,0.009741952642798424,-0.018977392464876175,0.005800485610961914
1772807461031481900,5.35748193359375,0.006831383798271418,-0.011168738827109337,0.0010794998379424214
1772807461041413000,5.3674130859375,0.008517333306372166,-0.011250339448451996,0.0055502294562757015
1772807461051345200,5.37734521484375,0.005722345784306526,-0.008608483709394932,0.007618440315127373
1772807461061277200,5.387277099609375,0.0031695812940597534,-0.011855872347950935,0.007369965314865112
1772807461071209000,5.397208984375,0.002724833320826292,-0.00945077184587717,0.010252837091684341
1772807461081141000,5.40714111328125,-0.001815737341530621,-0.009741083718836308,0.005230295937508345
1772807461091073000,5.417072998046875,-0.005374785978347063,-0.018619263544678688,0.003790590912103653
1772807461101005000,5.427005126953125,-0.009860862977802753,-0.018473448231816292,0.006583444308489561
1772807461110936000,5.43693603515625,-0.010481379926204681,-0.01611601933836937,0.005442013498395681
1772807461120867800,5.446867919921875,-0.0168207585811615,-0.013237491250038147,0.009705642238259315
1772807461130800000,5.456800048828125,-0.018418654799461365,-0.01156928762793541,0.004482917953282595
1772807461140732200,5.466732177734375,-0.018606027588248253,-0.0033017569221556187,0.0012680430663749576
1772807461150664200,5.476664306640625,-0.020794080570340157,-0.005920443218201399,0.0017322320491075516
1772807461160596200,5.48659619140625,-0.009841972962021828,0.002205591183155775,0.008001847192645073
1772807461170528000,5.496528076171875,-0.011138399131596088,-0.0016503999941051006,0.015459497459232807
1772807461180459000,5.506458984375,-0.00940149836242199,-0.009861903265118599,0.018346190452575684
1772807461190391000,5.51639111328125,-0.004842699039727449,-0.015561601147055626,0.021069271489977837
1772807461200323000,5.526322998046875,-0.006516873836517334,-0.02013719640672207,0.022641509771347046
1772807461210255000,5.536255126953125,-0.004847072064876556,-0.016364295035600662,0.020173823460936546
1772807461220187000,5.546186767578125,-0.00582423061132431,-0.018083855509757996,0.024737603962421417
1772807461230119000,5.556118896484375,-0.0047605643048882484,-0.01498420350253582,0.026829516515135765
1772807461240051000,5.566051025390625,-0.0045686946250498295,-0.012170637957751751,0.02928122691810131
1772807461249982200,5.575982177734375,-0.006055271252989769,-0.007867235690355301,0.029200797900557518
1772807461259914200,5.585914306640625,-0.0053673614747822285,-0.007345348596572876,0.02989392727613449
1772807461269846000,5.595845947265625,-0.004267476033419371,-0.004534915089607239,0.02897859737277031
1772807461279778000,5.605778076171875,-0.004008077085018158,0.00031865155324339867,0.02379031479358673
1772807461289710000,5.6157099609375,-0.0047042276710271835,-0.0010073361918330193,0.02239295467734337
1772807461299642000,5.62564208984375,-0.008088921196758747,-0.0005026338621973991,0.01945609785616398
1772807461309574100,5.63557421875,-0.00834804680198431,-0.009100383147597313,0.013588088564574718
1772807461319505000,5.6455048828125,-0.008388657122850418,-0.015260960906744003,0.010252390056848526
1772807461329437000,5.65543701171875,-0.008331932127475739,-0.01686791144311428,0.006571901496499777
1772807461339369000,5.665368896484375,-0.008366693742573261,-0.015112694352865219,0.0031489422544837
1772807461349301000,5.675301025390625,-0.007305956911295652,-0.017375580966472626,0.0033891594503074884
1772807461359233000,5.68523291015625,-0.003588467836380005,-0.01895737275481224,0.004398501478135586
1772807461369165000,5.6951650390625,-0.0026459749788045883,-0.01973315142095089,0.0007411823025904596
1772807461379097000,5.70509716796875,0.0021968474611639977,-0.020278945565223694,-0.0011245389468967915
1772807461389028000,5.715028076171875,0.0046019479632377625,-0.019878139719367027,0.0027713992167264223
1772807461398960000,5.724960205078125,0.004621014930307865,-0.01985342800617218,0.0013306236360222101
1772807461408892200,5.73489208984375,0.0035349775571376085,-0.018979644402861595,-0.003564266487956047
1772807461418824000,5.744823974609375,0.0046227434650063515,-0.02290871925652027,-0.007355719339102507
1772807461428756000,5.754755859375,0.005533544346690178,-0.02439742535352707,-0.005219331476837397
1772807461438688000,5.76468798828125,0.004242531955242157,-0.027468394488096237,-0.004605995491147041
1772807461448620000,5.7746201171875,0.002603356260806322,-0.025585271418094635,-0.001693030004389584
1772807461458551000,5.784551025390625,0.0075964126735925674,-0.023292619735002518,0.0016348495846614242
1772807461468483000,5.794483154296875,0.005784131586551666,-0.020374596118927002,0.001431916723959148
1772807461478415000,5.8044150390625,0.003820180194452405,-0.02388022653758526,0.004562818445265293
1772807461488347100,5.81434716796875,-0.0008107906905934215,-0.02436279132962227,0.006825706455856562
1772807461498279200,5.824279052734375,-0.0018249109853059053,-0.02541588991880417,0.000992226880043745
1772807461508211200,5.834211181640625,-0.005957071669399738,-0.024225989356637,-0.00020539660181384534
1772807461518143000,5.84414306640625,-0.0025633997283875942,-0.025324851274490356,-0.003988595679402351
1772807461528074000,5.854073974609375,-0.005241740960627794,-0.023153576999902725,-0.004916707053780556
1772807461538006000,5.864006103515625,-0.000639301841147244,-0.020746620371937752,-0.005242669954895973
1772807461547938000,5.87393798828125,-0.003010047599673271,-0.021657686680555344,-0.0016798932338133454
1772807461557870000,5.8838701171875,0.000339440128300339,-0.01856650598347187,0.0023656191769987345
1772807461567801900,5.8938017578125,0.004449496511369944,-0.02024589478969574,0.005493235774338245
1772807461577734000,5.90373388671875,0.00486376415938139,-0.01759309135377407,0.005164687056094408
1772807461587666000,5.913666015625,0.0044373925775289536,-0.015493188053369522,0.008886454626917839
1772807461597597200,5.92359716796875,0.0026317224837839603,-0.0150819206610322,0.00968230701982975
1772807461607529200,5.933529296875,0.0014431538293138146,-0.018916074186563492,0.008461513556540012
1772807461617461000,5.9434609375,0.0002641973551362753,-0.015944426879286766,0.005982194095849991
1772807461627393000,5.95339306640625,0.0018511749804019928,-0.021130133420228958,-0.0045892237685620785
1772807461637325000,5.963324951171875,0.004082382656633854,-0.023414412513375282,-0.014279226772487164
1772807461647257000,5.973257080078125,0.0006128163076937199,-0.027530327439308167,-0.019905153661966324
1772807461657189000,5.983189208984375,0.0033183321356773376,-0.023855512961745262,-0.013382898643612862
1772807461667119900,5.993119873046875,0.0015465309843420982,-0.018578993156552315,-0.003720949636772275
1772807461677052000,6.003052001953125,0.0017418492352589965,-0.012537291273474693,0.002777701709419489
1772807461686984000,6.01298388671875,0.002871562261134386,-0.015125351026654243,0.0028048655949532986
1772807461696916200,6.022916259765625,0.0035392334684729576,-0.019286399707198143,-0.005633896216750145
1772807461706848300,6.03284814453125,0.00028671504696831107,-0.02479754388332367,-0.014224722050130367
1772807461716780000,6.042780029296875,-0.002395354676991701,-0.031455181539058685,-0.017927046865224838
1772807461726712000,6.052712158203125,-0.00038919528014957905,-0.029392030090093613,-0.014097422361373901
1772807461736643000,6.06264306640625,0.004698614589869976,-0.021688777953386307,-0.019445842131972313
1772807461746575000,6.0725751953125,0.007796137593686581,-0.01592995971441269,-0.02195240929722786
1772807461756507100,6.082507080078125,0.007963649928569794,-0.016495615243911743,-0.015626071020960808
1772807461766439000,6.09243896484375,0.007209709379822016,-0.01352885365486145,-0.012399917468428612
1772807461776371000,6.102370849609375,0.0092284195125103,-0.010616407729685307,-0.007391850929707289
1772807461786303000,6.112302978515625,0.011311011388897896,-0.012250524014234543,-0.00547304330393672
1772807461796235000,6.122235107421875,0.012513939291238785,-0.01566879078745842,-0.009533649310469627
1772807461806167000,6.1321669921875,0.010059836320579052,-0.015469585545361042,-0.010747252032160759
1772807461816098000,6.14209814453125,0.007773091550916433,-0.012821851298213005,-0.0041249413043260574
1772807461826030000,6.152030029296875,0.0069078304804861546,-0.0034882707986980677,-0.0004479149356484413
1772807461835962000,6.161962158203125,0.003747872542589903,0.00449324632063508,-0.0005772593431174755
1772807461845894100,6.17189404296875,0.006601183209568262,0.0024665803648531437,0.001155393198132515
1772807461855826200,6.181826171875,0.0008939396939240396,0.002833613194525242,-0.004754615016281605
1772807461865758000,6.191758056640625,0.0022417656145989895,0.003316977061331272,-0.007548803463578224
1772807461875690000,6.20168994140625,-0.0025405078195035458,0.008932005614042282,-0.009125475771725178
1772807461885621000,6.21162109375,-0.0006983993807807565,0.01075680460780859,-0.00697151105850935
1772807461895553000,6.221552978515625,-0.0028640818782150745,0.01165588665753603,-0.004476927686482668
1772807461905485000,6.231485107421875,-0.0024230624549090862,0.01292035635560751,-0.003583703888580203
1772807461915416800,6.241416748046875,-0.002295366721227765,0.014177522622048855,-0.0007265752647072077
1772807461925349000,6.25134912109375,0.002065559383481741,0.01983967050909996,0.005757423117756844
1772807461935281200,6.26128125,0.0046161990612745285,0.022595129907131195,0.011415397748351097
1772807461945213200,6.271213134765625,0.004814604297280312,0.017768150195479393,0.013978424482047558
1772807461955144000,6.28114404296875,0.004868558142334223,0.01971566490828991,0.006825700867921114
1772807461965076000,6.291075927734375,0.0052499230951070786,0.01556859165430069,0.0019499855116009712
1772807461975008000,6.301008056640625,0.0038067607674747705,0.015253497287631035,-0.00424577109515667
1772807461984940000,6.31093994140625,0.004302375018596649,0.01672196574509144,-0.006496142130345106
1772807461994872000,6.3208720703125,0.005378558300435543,0.019298573955893517,-0.006888159550726414
1772807462004803300,6.33080322265625,0.005387879442423582,0.01991908997297287,-0.006262849550694227
1772807462014735400,6.3407353515625,0.0031056352891027927,0.018426349386572838,-0.0026599366683512926
1772807462024666400,6.350666259765625,0.00716748833656311,0.01766415312886238,0.002620579209178686
1772807462034598400,6.360598388671875,0.007105994038283825,0.021824367344379425,0.0026121402624994516
1772807462044530400,6.370530517578125,0.007694552652537823,0.025316569954156876,0.0036837963853031397
1772807462054462500,6.38046240234375,0.0072834910824894905,0.027072016149759293,0.000822585541754961
1772807462064394500,6.39039453125,0.006819834932684898,0.028720512986183167,-0.003975098952651024
1772807462074326500,6.400326416015625,0.005256167612969875,0.030615156516432762,-0.0037990661803632975
1772807462084258300,6.41025830078125,0.006663914769887924,0.03482294827699661,-0.00022110925056040287
1772807462094189300,6.420189208984375,0.002144948113709688,0.039985209703445435,0.00029891333542764187
1772807462104121300,6.430121337890625,0.004569756332784891,0.033667393028736115,-0.004346172325313091
1772807462114053400,6.440053466796875,0.005485052242875099,0.029337076470255852,-0.0056159598752856255
1772807462123985400,6.4499853515625,0.007766582537442446,0.0251106396317482,-0.011769194155931473
1772807462133917400,6.45991748046875,0.008467026054859161,0.019412023946642876,-0.017374355345964432
1772807462143849500,6.469849365234375,0.00954107940196991,0.01666444167494774,-0.014197205193340778
1772807462153781500,6.479781494140625,0.009874752722680569,0.014708781614899635,-0.010449955239892006
1772807462163713500,6.489713623046875,0.009961305186152458,0.014722896739840508,-0.005374768748879433
1772807462173644300,6.499644287109375,0.009125746786594391,0.017597313970327377,-0.002021052408963442
1772807462183576300,6.509576416015625,0.01129063032567501,0.018726229667663574,-0.0022937599569559097
1772807462193508400,6.51950830078125,0.009849495254456997,0.016955062747001648,-0.0034634280018508434
1772807462203440400,6.5294404296875,0.012543016113340855,0.014509482309222221,-0.0028604883700609207
1772807462213372400,6.539372314453125,0.010204979218542576,0.010751898400485516,-0.001854956615716219
1772807462223304400,6.549304443359375,0.01127796620130539,0.01126189436763525,-0.0022112876176834106
1772807462233236200,6.559236328125,0.012599208392202854,0.006023850757628679,-0.0012564662611111999
1772807462243167500,6.56916748046875,0.009703286923468113,0.001919920090585947,-0.002073257928714156
1772807462253099500,6.579099609375,0.006218514405190945,0.0026442701928317547,-0.010094160214066505
1772807462263031600,6.589031494140625,0.00805369857698679,0.0036794408224523067,-0.00891864113509655
1772807462272963600,6.598963623046875,0.004543612711131573,0.0017143250443041325,-0.0091445567086339
1772807462282895400,6.608895263671875,0.00595801742747426,-0.004171793349087238,-0.013823997229337692
1772807462292827400,6.618827392578125,0.004688000772148371,-0.006734891328960657,-0.013709046877920628
1772807462302759400,6.628759521484375,0.0039369892328977585,-0.01016451045870781,-0.014751940965652466
1772807462312690400,6.6386904296875,0.004970173817127943,-0.014170669950544834,-0.009456159546971321
1772807462322622500,6.64862255859375,0.004790144506841898,-0.011403112672269344,-0.0028326117899268866
1772807462332554200,6.65855419921875,0.00801614299416542,-0.008076243102550507,-0.0032065147534012794
1772807462342486300,6.668486328125,0.010563190095126629,-0.005712155252695084,-0.004745555110275745
1772807462352418300,6.678418212890625,0.01326298713684082,-0.0054751429706811905,-0.0011352004949003458
1772807462362350300,6.688350341796875,0.013966593891382217,-0.0057393284514546394,-0.0016630390891805291
1772807462372282600,6.69828271484375,0.01534119900316,-0.004253554157912731,0.00665019266307354
1772807462382213400,6.70821337890625,0.01638941839337349,-0.004765680059790611,0.008329581469297409
1772807462392145400,6.7181455078125,0.016729217022657394,-0.0014040418900549412,0.007539249025285244
1772807462402077400,6.728077392578125,0.01432438287883997,-0.0007515670731663704,0.0036438435781747103
1772807462412009500,6.738009521484375,0.011348576284945011,-0.005944811273366213,-0.00633990578353405
1772807462421941500,6.74794140625,0.009663061238825321,-0.005801000166684389,-0.01710813120007515
1772807462431873300,6.757873291015625,0.005799577571451664,-0.006635880097746849,-0.0242856964468956
1772807462441805300,6.767805419921875,0.004428848624229431,-0.005325338337570429,-0.028837304562330246
1772807462451736600,6.777736572265625,0.004677880555391312,-0.005401446484029293,-0.02806801348924637
1772807462461668600,6.787668701171875,0.006668327376246452,-0.0055236853659152985,-0.02663443237543106
1772807462471600600,6.7976005859375,0.009165150113403797,-0.0028311763890087605,-0.01922045275568962
1772807462481532400,6.807532470703125,0.00854862853884697,-0.001387743279337883,-0.017484605312347412
1772807462491464400,6.81746435546875,0.011814066208899021,-0.007683077361434698,-0.007861895486712456
1772807462501396500,6.827396484375,0.012576529756188393,-0.004869980271905661,-0.005008850712329149
1772807462511328500,6.83732861328125,0.013600645586848259,-0.009541809558868408,-0.0030057979747653008
1772807462521260500,6.847260498046875,0.012419266626238823,-0.006455472204834223,-0.003205268643796444
1772807462531191300,6.85719140625,0.011868293397128582,-0.00640036491677165,-0.008447088301181793
1772807462541123300,6.867123291015625,0.010483450256288052,-0.010182585567235947,-0.01242878008633852
1772807462551055400,6.877055419921875,0.011649470776319504,-0.01051073707640171,-0.01644996553659439
1772807462560987400,6.8869873046875,0.011842283420264721,-0.014695893973112106,-0.014860591851174831
1772807462570919400,6.89691943359375,0.011922196485102177,-0.019994113594293594,-0.014180423691868782
1772807462580851200,6.906851318359375,0.012335785664618015,-0.020042849704623222,-0.015715468674898148
1772807462590783200,6.916783203125,0.014828900806605816,-0.019613394513726234,-0.01688237674534321
1772807462600714500,6.926714599609375,0.01340730581432581,-0.01423247717320919,-0.017347631976008415
1772807462610646500,6.936646484375,0.013586275279521942,-0.013600284233689308,-0.013615656644105911
1772807462620578600,6.94657861328125,0.010992889292538166,-0.012235946953296661,-0.021511929109692574
1772807462630510300,6.95651025390625,0.011591315269470215,-0.008882351219654083,-0.020561981946229935
1772807462640442400,6.9664423828125,0.009564384818077087,-0.0071504972875118256,-0.022600632160902023
1772807462650374400,6.97637451171875,0.011643345467746258,-0.012301979586482048,-0.019172780215740204
1772807462660306400,6.986306396484375,0.008906947448849678,-0.010279042646288872,-0.01608617790043354
1772807462670237200,6.9962373046875,0.006769143510609865,-0.005600123666226864,-0.016426896676421165
1772807462680169200,7.006169189453125,0.005094281397759914,-0.006363385356962681,-0.01409875974059105
1772807462690101500,7.0161015625,0.00278703635558486,-0.003762537147849798,-0.01317934412509203
1772807462700033500,7.026033447265625,0.0018370868638157845,-0.0008522346615791321,-0.014151664450764656
1772807462709965600,7.035965576171875,0.001485403859987855,0.004847165197134018,-0.014157610014081001
1772807462719897600,7.045897705078125,0.003185299690812826,0.011425440199673176,-0.01107793115079403
1772807462729829400,7.055829345703125,0.003013530746102333,0.01624545268714428,-0.009087130427360535
1772807462739761400,7.065761474609375,0.0018462671432644129,0.026924729347229004,-0.0071805729530751705
1772807462749692400,7.0756923828125,0.0071248020976781845,0.02874898537993431,-0.0031449110247194767
1772807462759624400,7.08562451171875,0.006217462942004204,0.033347200602293015,0.0020059088710695505
1772807462769556500,7.095556396484375,0.003457119222730398,0.032430846244096756,-0.004571305122226477
1772807462779488300,7.10548828125,0.004858741071075201,0.028339961543679237,-0.010365811176598072
1772807462789420300,7.115420166015625,0.006897494662553072,0.02688496746122837,-0.006909288000315428
1772807462799352300,7.125352294921875,0.007768881041556597,0.024810630828142166,-0.005222441628575325
1772807462809284400,7.135284423828125,0.005178404040634632,0.019092721864581108,-0.005712014622986317
1772807462819215600,7.145215576171875,0.0071906885132193565,0.017611471936106682,-0.004403603263199329
1772807462829147400,7.1551474609375,0.004692229442298412,0.012618549168109894,-0.004226588644087315
1772807462839079400,7.165079345703125,0.002239191671833396,0.012214016169309616,-0.008242103271186352
1772807462849011500,7.175011474609375,0.0035305810160934925,0.013704685494303703,-0.008761868812143803
1772807462858943500,7.184943603515625,0.005736477207392454,0.011290529742836952,-0.009088905528187752
1772807462868875500,7.19487548828125,0.005551816895604134,0.01032980252057314,-0.00934333261102438
1772807462878807300,7.204807373046875,0.004393874201923609,0.009238971397280693,-0.011022188700735569
1772807462888738300,7.21473828125,0.006409962195903063,0.00867951288819313,-0.008313562721014023
1772807462898670300,7.22467041015625,0.00896766223013401,0.008625185117125511,-0.009615582413971424
1772807462908602400,7.234602294921875,0.01014896109700203,0.008252307772636414,-0.012037473730742931
1772807462918534400,7.244534423828125,0.008337745442986488,0.0070834471844136715,-0.012612716294825077
1772807462928466400,7.254466552734375,0.006684717256575823,-0.001686037052422762,-0.01106950268149376
1772807462938398500,7.2643984375,0.006856224499642849,-0.004569974262267351,-0.014226414263248444
1772807462948330500,7.27433056640625,0.005907190963625908,-0.007263221777975559,-0.011518951505422592
1772807462958262500,7.284262451171875,0.005233410745859146,-0.005518052261322737,-0.013918992131948471
1772807462968193500,7.294193603515625,0.007787518203258514,-0.005960557144135237,-0.01938042603433132
1772807462978125300,7.304125244140625,0.006267918739467859,-0.004454273264855146,-0.02062305621802807
1772807462988057300,7.314057373046875,0.008660883642733097,-0.006677201483398676,-0.01744820922613144
1772807462997989400,7.3239892578125,0.009265953674912453,-0.008416778407990932,-0.015468948520720005
1772807463007921000,7.3339208984375,0.010997701436281204,-0.00830315425992012,-0.015938114374876022
1772807463017853000,7.34385302734375,0.012197721749544144,-0.005814962554723024,-0.012046437710523605
1772807463027784700,7.35378466796875,0.01313941553235054,-0.0057284096255898476,-0.006998682394623756
1772807463037716000,7.363716064453125,0.011502105742692947,-0.0011421800591051579,-0.0053893341682851315
1772807463047648000,7.37364794921875,0.012764176353812218,-0.001849781721830368,-0.007491366937756538
1772807463057580000,7.383580078125,0.009252000600099564,0.000265300739556551,-0.009746531955897808
1772807463067512000,7.393511962890625,0.008218435570597649,-0.0019135097973048687,-0.010782325640320778
1772807463077443800,7.40344384765625,0.005543556530028582,-0.005351916886866093,-0.015415693633258343
1772807463087376000,7.4133759765625,0.004501694813370705,-0.011962931603193283,-0.019227823242545128
1772807463097308000,7.423307861328125,0.0034577352926135063,-0.010172221809625626,-0.022149311378598213
1772807463107240000,7.433239990234375,0.0007284303428605199,-0.012029413133859634,-0.02419995330274105
1772807463117170700,7.443170654296875,0.0006464050384238362,-0.00981126632541418,-0.018433144316077232
1772807463127103000,7.45310302734375,0.003700247732922435,-0.006361102685332298,-0.010423243045806885
1772807463137035000,7.463034912109375,0.0008075221558101475,-0.004560273140668869,-0.0058742971159517765
1772807463146967000,7.472967041015625,0.0035368609242141247,-0.004025357775390148,0.002462817821651697
1772807463156899000,7.482899169921875,0.0056463503278791904,-0.004476763308048248,-0.0027103726752102375
1772807463166831000,7.4928310546875,0.003402460366487503,-0.006657409481704235,-0.0069643184542655945
1772807463176763000,7.502762939453125,0.0043590678833425045,-0.007068335078656673,-0.012754563242197037
1772807463186694000,7.51269384765625,0.007487505674362183,-0.01170506700873375,-0.013779530301690102
1772807463196626000,7.5226259765625,0.007755952421575785,-0.012033434584736824,-0.021364478394389153
1772807463206558000,7.532557861328125,0.0004713079542852938,-0.02030111476778984,-0.04477820172905922
1772807463216490000,7.542489990234375,0.008589687757194042,-0.002023574896156788,-0.043718528002500534
1772807463226421800,7.552421875,0.008649207651615143,0.00041416846215724945,-0.03145911172032356
1772807463236353800,7.562353759765625,0.006492580287158489,0.005034219939261675,-0.012991153635084629
1772807463246285800,7.572285888671875,0.007538530509918928,-0.0010961857624351978,-0.008248328231275082
1772807463256217000,7.582217041015625,0.007208032533526421,-0.0025454778224229813,-0.020231489092111588
1772807463266148900,7.59214892578125,0.007326800841838121,-0.003311857348307967,-0.02145618386566639
1772807463276081000,7.602080810546875,0.010141229256987572,-0.003073504427447915,-0.02165405824780464
1772807463286013000,7.612012939453125,0.007755569647997618,0.0015124590136110783,-0.00942295789718628
1772807463295945000,7.621945068359375,0.008696464821696281,0.002828060183674097,-0.000523206137586385
1772807463305877000,7.631876953125,0.011237015016376972,0.016333863139152527,0.006592487450689077
1772807463315809000,7.64180908203125,0.012056203559041023,0.015223858878016472,0.00897015817463398
1772807463325740800,7.65174072265625,0.009646806865930557,0.011291513219475746,0.007475866004824638
1772807463335671800,7.661671875,0.009657192975282669,0.01071573793888092,0.004508038982748985
1772807463345603800,7.671603759765625,0.005876976065337658,0.008685683831572533,0.002597752260044217
1772807463355536000,7.681535888671875,0.0036889228504151106,0.00013400660827755928,-0.0016020527109503746
1772807463365468000,7.691468017578125,0.0012392320204526186,-0.006149762775748968,-0.008801380172371864
1772807463375400000,7.70139990234375,0.0033447272144258022,-0.004591014701873064,-0.012270146980881691
1772807463385332000,7.71133203125,-0.0004727757768705487,-0.002411140128970146,-0.007747834548354149
1772807463395264000,7.721263916015625,0.0015514928381890059,0.002809187863022089,0.0008797418558970094
1772807463405195000,7.731195068359375,-0.0010274357628077269,0.000048121437430381775,0.004808006342500448
1772807463415127000,7.741126953125,0.00016672565834596753,0.00023747235536575317,0.0036319540813565254
1772807463425058800,7.751058837890625,0.0019376282580196857,-0.0007094163447618484,0.0014715015422552824
1772807463434990800,7.760990966796875,0.003797313664108515,-0.0026553880888968706,0.0020395538304001093
1772807463444923000,7.7709228515625,0.003297804156318307,-0.000005674082785844803,0.0033464631997048855
1772807463454855000,7.78085498046875,0.0016684822039678693,-0.0014967783354222775,0.005671669263392687
1772807463464787000,7.790786865234375,0.004393173381686211,-0.002212187508121133,0.004721894860267639
1772807463474718700,7.80071875,0.0023052552714943886,-0.004095042590051889,-0.002844944829121232
1772807463484650000,7.81064990234375,-0.000812208279967308,-0.0037467163056135178,-0.011740620248019695
1772807463494582000,7.82058203125,0.0005281606572680175,-0.003935001790523529,-0.01246233657002449
1772807463504514000,7.83051416015625,0.0003439878928475082,0.0005665444768965244,-0.005426173564046621
1772807463514446000,7.840446044921875,0.003148829098790884,0.002037674654275179,-0.003981941379606724
1772807463524377900,7.8503779296875,0.004041132517158985,0.002238776534795761,-0.002995952730998397
1772807463534310000,7.860309814453125,0.007028399966657162,0.002251559868454933,-0.0010068377014249563
1772807463544242000,7.870241943359375,0.006431165151298046,0.0014089830219745636,0.00437834532931447
1772807463554173000,7.8801728515625,0.0028654588386416435,0.001824436243623495,0.007638054434210062
1772807463564105000,7.89010498046875,0.0019413650734350085,0.0017161127179861069,0.005153497215360403
1772807463574036700,7.90003662109375,0.0010699788108468056,0.004540660884231329,0.002512973267585039
1772807463583968800,7.90996875,0.00036944367457181215,-0.0028706127777695656,-0.006330498959869146
1772807463593900800,7.91990087890625,-0.00330305565148592,-0.005104206036776304,-0.007778193335980177
1772807463603833000,7.9298330078125,-0.003004138357937336,-0.0035664155147969723,-0.009404403157532215
1772807463613765000,7.93976513671875,0.00046915648272261024,-0.007171004079282284,-0.011401241645216942
1772807463623697000,7.94969677734375,0.0010018096072599292,-0.0024424900766462088,-0.010168025270104408
1772807463633628000,7.9596279296875,0.0024897176772356033,-0.0023844330571591854,-0.0042214528657495975
1772807463643560000,7.969559814453125,0.003962966613471508,0.0019076326861977577,0.0011408247519284487
1772807463653492000,7.979491943359375,0.00627858517691493,0.0031981999054551125,0.006140909623354673
1772807463663422700,7.989422607421875,0.005792824551463127,0.004652019590139389,0.006074064411222935
1772807463673354000,7.99935400390625,0.004768306389451027,0.0019529061391949654,0.005352613981813192
1772807463683286000,8.0092861328125,0.003970540128648281,-0.000003178603947162628,-0.001847149571403861
1772807463693218000,8.019218017578124,0.007269131951034069,-0.0016844319179654121,-0.006135105155408382
1772807463703150000,8.029150146484374,0.0031428560614585876,-0.003970992751419544,-0.005641360767185688
1772807463713081900,8.039081787109374,0.0013516140170395374,-0.006180617492645979,-0.0034988480620086193
1772807463723014000,8.049013916015625,-0.002400517463684082,-0.008322559297084808,-0.004203341901302338
1772807463732946000,8.05894580078125,-0.0033486029133200645,-0.005358461290597916,-0.017417948693037033
1772807463742878000,8.0688779296875,-0.002715456299483776,0.0005388874560594559,-0.011536351405084133
1772807463752808700,8.07880859375,-0.005305114202201366,-0.0032545190770179033,0.00015093092224560678
1772807463762740700,8.08874072265625,-0.007807537913322449,0.0005306252278387547,0.004147977102547884
1772807463772672800,8.0986728515625,-0.00682456512004137,0.003840135410428047,-0.0023639844730496407
1772807463782605000,8.10860498046875,-0.0013886746019124985,0.0004989812150597572,-0.003896895330399275
1772807463792537000,8.118537109375,-0.0028166614938527346,-0.0075994255021214485,-0.01014786772429943
1772807463802469000,8.12846923828125,-0.0016364565817639232,-0.005621315445750952,-0.007269705645740032
1772807463812401000,8.13840087890625,-0.000360003556124866,0.0019742860458791256,-0.002604113658890128
1772807463822332000,8.148331787109376,-0.006104026921093464,-0.0038990851026028395,0.001999156316742301
1772807463832264000,8.158263916015626,-0.006330661475658417,-0.005846654996275902,0.004626364912837744
1772807463842196000,8.168196044921874,-0.008283047005534172,-0.0015574065037071705,0.000790619058534503
1772807463852128000,8.1781279296875,-0.008487577550113201,-0.006705563049763441,-0.0053663430735468864
1772807463862059800,8.188059814453124,-0.010697321966290474,-0.009217191487550735,-0.005280414596199989
1772807463871991800,8.19799169921875,-0.007548667024821043,-0.011281674727797508,-0.007010137662291527
1772807463881923800,8.207923828125,-0.006687663495540619,-0.00867873802781105,-0.012376053258776665
1772807463891856000,8.21785595703125,-0.008497281931340694,-0.011761346831917763,-0.017351636663079262
1772807463901787000,8.227786865234375,-0.006872884929180145,-0.006286572199314833,-0.017112841829657555
1772807463911719000,8.237718994140625,-0.004159655887633562,-0.01308375783264637,-0.013971641659736633
1772807463921651000,8.24765087890625,-0.007692611776292324,-0.00871769618242979,-0.016146821901202202
1772807463931583000,8.2575830078125,0.0070043085142970085,0.00003638025373220444,-0.005645711440593004
1772807463941515000,8.267514892578125,-0.0032262287568300962,0.0017719999887049198,0.003200422739610076
1772807463951447000,8.277447021484376,-0.004408672451972961,-0.0012445622123777866,0.006883574649691582
1772807463961378800,8.28737890625,-0.003635818837210536,0.006142476107925177,0.0031805371399968863
1772807463971309800,8.297309814453126,-0.0015969029627740383,0.0077965655364096165,-0.006936545483767986
1772807463981241900,8.307241943359376,-0.001788527239114046,0.01150098443031311,-0.006475639063864946
1772807463991174000,8.317173828125,0.0010520003270357847,0.008985096588730812,-0.005431679543107748
1772807464001106000,8.32710595703125,0.0019249803153797984,0.005609846208244562,-0.002893242286518216
1772807464011038000,8.337037841796874,0.0015939493896439672,0.004082789178937674,-0.006677328143268824
1772807464020970000,8.346969970703125,0.003166527021676302,0.0016533490270376205,-0.013557689264416695
1772807464030902800,8.35690283203125,0.004793185740709305,0.0012256456539034843,-0.013848773203790188
1772807464040834800,8.366834716796875,-0.003185765817761421,-0.0007309475913643837,-0.006062136497348547
1772807464050766600,8.3767666015625,-0.0017585777677595615,0.0028227739967405796,0.003690892131999135
1772807464060698600,8.38669873046875,-0.006192727945744991,0.0022950838319957256,0.015325707383453846
1772807464070631000,8.396630859375,-0.004300285596400499,0.00018319720402359962,0.01844187080860138
1772807464080562000,8.40656201171875,-0.005750245414674282,0.00020651891827583313,0.010435433126986027
1772807464090493700,8.41649365234375,-0.005051165819168091,-0.002951457630842924,-0.002311520278453827
1772807464100425700,8.42642578125,-0.008230587467551231,-0.004019725602120161,-0.002772778272628784
1772807464110357800,8.436357666015626,-0.007496353704482317,-0.0007325857877731323,-0.005798928439617157
1772807464120289800,8.446289794921874,-0.0009828942129388452,0.033594269305467606,0.05056491494178772
1772807464130221800,8.456221923828124,-0.006655161269009113,0.01539502665400505,0.047521721571683884
1772807464140153900,8.46615380859375,-0.003297889605164528,0.03082835115492344,0.03611798584461212
1772807464150085600,8.476085693359375,-0.005166097078472376,0.012501806020736694,0.026012355461716652
1772807464160017000,8.486016845703125,-0.007017500698566437,0.010428566485643387,0.015163164585828781
1772807464169949000,8.495948974609375,-0.004810272715985775,-0.000007029157131910324,0.010192373767495155
1772807464179881000,8.505880859375,-0.0034703020937740803,0.00020267535001039505,0.009600530378520489
1772807464189813000,8.51581298828125,0.0009058043360710144,-0.002562218578532338,0.0008176914416253567
1772807464199744800,8.525744873046875,-0.0031609677243977785,-0.01076897606253624,-0.006320825312286615
1772807464209676800,8.5356767578125,-0.0038978641387075186,-0.007407267112284899,-0.005005756393074989
1772807464219608800,8.54560888671875,-0.004988557659089565,-0.0074561904184520245,-0.006268361583352089
1772807464229540900,8.555540771484376,-0.005057266913354397,-0.00524496752768755,-0.0017686845967546105
1772807464239471900,8.565471923828126,-0.007879162207245827,-0.011691305786371231,-0.006889941170811653
1772807464249403600,8.575403564453126,-0.0063004400581121445,-0.02359110862016678,-0.03182351961731911
1772807464259335700,8.585335693359376,-0.00866704247891903,-0.03472478315234184,-0.05978929251432419
1772807464269267700,8.595267822265624,-0.008336544968187809,-0.016913030296564102,-0.05217717960476875
1772807464279199700,8.60519970703125,-0.005965536460280418,-0.012952040880918503,-0.017486484721302986
